{  
   "resourceType":"Immunization",
   "id":"Immunization01",
   "meta":{  
      "lastUpdated":"2017-07-25T15:43:54.271-05:00"
   },
   "extension":[  
      {  
         "url":"http://ehealthontario.ca/fhir/StructureDefinition/ca-on-immunizations-extension-valid-flag",
         "valueBoolean":true
      },
      {  
         "url":"http://ehealthontario.ca/fhir/StructureDefinition/ca-on-immunizations-extension-public-health-unit",
         "valueString":"Toronto PHU"
      }
   ],
   "status":"completed",
   "vaccineCode":{  
      "coding":[  
         {  
            "system":"http://snomed.info/sct",
            "code":"61153008",
            "display":"MMR measles + mumps + rubella unspecified"
         },
         {  
            "system":"http://snomed.info/sct",
            "code":"7171000087106",
            "display":"MMR Priorix GSK"
         }
      ]
   },
   "patient":{  
      "reference":"Patient/Patient1234"
   },
   "occurrenceDateTime":"2016-02-14T10:22:00-05:00",
   "_occurrenceDateTime":{  
      "extension":[  
         {  
            "url":"http://ehealthontario.ca/fhir/StructureDefinition/ca-on-extension-estimated-date",
            "valueBoolean":true
         }
      ]
   },
   "primarySource":false,
   "lotNumber":"Some Lot",
   "performer":[  
      {  
         "function":{  
            "coding":[  
               {  
                  "system":"http://terminology.hl7.org/CodeSystem/v2-0443",
                  "code":"AP",
                  "display":"Administering Provider"
               }
            ]
         },
         "actor":{  
            "reference":"Practitioner/Practitioner1234"
         }
      }
   ]
}



{  
   "resourceType":"Patient",
   "id":"Patient1234",
   "identifier":[  
      {  
         "system":"[id-system-local-base]/ca-on-panorama-immunization-id",
         "value":"95ZWBKWTC5"
      },
      {  
         "system":"[id-system-global-base]/ca-on-patient-hcn",
         "value":"9393881587"
      }
   ],
   "name":[  
      {  
         "family":"Doe",
         "given":[  
            "John",
            "W."
         ]
      }
   ],
   "telecom":[  
      {  
         "system":"phone",
         "value":"416-444-4444",
         "use":"home"
      }
   ],
   "gender":"male",
   "birthDate":"2012-02-14"
}



{  
   "resourceType":"Practitioner",
   "id":"Practitioner1234",
   "name":[  
      {  
         "family":"Nurse",
         "given":[  
            "Best"
         ]
      }
   ]
}


{  
   "resourceType":"ImmunizationRecommendation",
   "id":"ImmunizationRecommendation01",
   "patient":{  
      "reference":"Patient/Patient1234"
   },
   "date":"2016-07-28T11:04:15.817-05:00",
   "recommendation":[  
      {  
         "vaccineCode":{  
            "coding":[  
               {  
                  "system":"http://snomed.info/sct",
                  "code":"90043005",
                  "display":"Mu mumps live unspecified"
               },
               {  
                  "system":"http://snomed.info/sct",
                  "code":"7171000087106",
                  "display":"MMR Priorix GSK"
               }
            ]
         },
         "forecastStatus":{  
            "coding":[  
               {  
                  "system":"http://terminology.hl7.org/CodeSystem/immunization-recommendation-status",
                  "code":"overdue",
                  "display":"The patient is considered overdue for their next vaccination."
               }
            ]
         },
         "dateCriterion":[  
            {  
               "code":{  
                  "coding":[  
                     {  
                        "system":"http://snomed.info/sct",
                        "code":"171279008",
                        "display":"Due Date"
                     }
                  ]
               },
               "value":"2016-07-01"
            }
         ]
      },
      {  
         "targetDisease":{  
            "coding":[  
               {  
                  "system":"http://snomed.info/sct",
                  "code":"14189004",
                  "display":"Measles"
               }
            ]
         },
         "forecastStatus":{  
            "coding":[  
               {  
                  "system":"http://terminology.hl7.org/CodeSystem/immunization-recommendation-status",
                  "code":"due",
                  "display":"The patient is due for their next vaccination."
               }
            ]
         },
         "dateCriterion":[  
            {  
               "code":{  
                  "coding":[  
                     {  
                        "system":"http://snomed.info/sct",
                        "code":"171279008",
                        "display":"Due Date"
                     }
                  ]
               },
               "value":"2016-12-01"
            }
         ]
      }
   ]
}

